
SYMMETRICAL COMPONENT VOLTAGES BY BUS (for 3-phase buses)

Bus        Mag:   V1 (kV)    p.u.     V2 (kV)   %V2/V1    V0 (kV)    %V0/V1

sourcebus  0.005356  0.0008434    0.00029      5.414 3.835E-016 7.16E-012
1         0.0007992   0.003327  4.327E-005      5.414 6.221E-005     7.784
2         0.0008046    0.00335  4.356E-005      5.414 6.22E-005     7.731
3         0.0008052   0.003352  4.359E-005      5.414 6.22E-005     7.725
4         0.0008057   0.003355  4.362E-005      5.414 6.22E-005      7.72
5         0.0008062   0.003356  4.365E-005      5.414 6.22E-005     7.716
6         0.0008069    0.00336  4.369E-005      5.414 6.221E-005     7.709
7         0.0008569   0.003568  4.64E-005      5.414 6.35E-005      7.41
8         0.0008592   0.003577  4.652E-005      5.414 6.361E-005     7.403
9         0.0008611   0.003585  4.662E-005      5.414 6.37E-005     7.398
10        0.0008627   0.003592  4.671E-005      5.414 6.379E-005     7.394
11        0.0008639   0.003597  4.678E-005      5.414 6.385E-005     7.391
12        0.0008651   0.003602  4.684E-005      5.414 6.392E-005     7.388
13        0.0008658   0.003605  4.688E-005      5.414 6.396E-005     7.387
14        0.0008676   0.003612  4.697E-005      5.414 6.406E-005     7.383
15        0.0008819   0.003672  4.775E-005      5.414 6.496E-005     7.365
16        0.0008819   0.003672  4.775E-005      5.414 6.496E-005     7.365
17        0.0008994   0.003745  4.87E-005      5.414 6.627E-005     7.368
18        0.0008819   0.003672  4.775E-005      5.414 6.496E-005     7.365
19        0.0009006    0.00375  4.876E-005      5.414 6.637E-005     7.369
20        0.0008819   0.003672  4.775E-005      5.414 6.496E-005     7.365
21         0.000902   0.003755  4.883E-005      5.414 6.648E-005     7.371
22        0.0008819   0.003672  4.775E-005      5.414 6.496E-005     7.365
23        0.0009042   0.003765  4.895E-005      5.414 6.667E-005     7.373
24        0.0008819   0.003672  4.775E-005      5.414 6.496E-005     7.365
25        0.0009082   0.003781  4.917E-005      5.414 6.701E-005     7.379
26        0.0008819   0.003672  4.775E-005      5.414 6.496E-005     7.365
27        0.0009095   0.003787  4.976E-005      5.471 6.898E-005     7.585
28        0.0009568   0.003984  5.069E-005      5.298 6.825E-005     7.132
29        0.0008819   0.003672  4.775E-005      5.414 6.496E-005     7.365
30        0.0009096   0.003787  4.977E-005      5.472 6.921E-005     7.609
31        0.0009097   0.003788  4.992E-005      5.487 6.928E-005     7.616
32        0.0009698   0.004038  5.11E-005      5.268 6.877E-005     7.091
33        0.0008819   0.003672  4.775E-005      5.414 6.496E-005     7.365
34        0.0009098   0.003788  4.98E-005      5.473 6.975E-005     7.666
35        0.0009097   0.003788  4.992E-005      5.488 6.929E-005     7.617
36        0.0009715   0.004045   5.2E-005      5.353 6.773E-005     6.971
37         0.001008   0.004195  5.211E-005      5.171 7.245E-005      7.19
38        0.0008819   0.003672  4.775E-005      5.414 6.496E-005     7.365
39        0.0009097   0.003788  4.993E-005      5.489 6.931E-005     7.619
40        0.0009716   0.004045  5.203E-005      5.356 6.769E-005     6.967
41        0.0009718   0.004046  5.215E-005      5.366 6.757E-005     6.953
42         0.001034   0.004305  5.283E-005      5.109 7.512E-005     7.265
43         0.001008   0.004195  5.211E-005      5.171 7.245E-005      7.19
44        0.0008819   0.003672  4.775E-005      5.414 6.496E-005     7.365
45        0.0009097   0.003788  4.994E-005       5.49 6.933E-005     7.621
46        0.0009716   0.004045  5.205E-005      5.357 6.767E-005     6.965
47        0.0009724   0.004049  5.251E-005        5.4 6.719E-005     6.909
48         0.001054   0.004388  5.338E-005      5.065 7.72E-005     7.325
49         0.001008   0.004195  5.211E-005      5.171 7.245E-005      7.19
50        0.0008819   0.003672  4.775E-005      5.414 6.496E-005     7.365
51        0.0009098   0.003788  4.997E-005      5.492 6.937E-005     7.625
52        0.0009716   0.004046  5.206E-005      5.358 6.766E-005     6.963
53         0.001057     0.0044  5.347E-005      5.059 7.75E-005     7.333
54         0.001054   0.004388  5.338E-005      5.065 7.72E-005     7.325
55         0.001008   0.004195  5.211E-005      5.171 7.245E-005      7.19
56        0.0008819   0.003672  4.775E-005      5.414 6.496E-005     7.365
57        0.0009098   0.003788  4.999E-005      5.494 6.941E-005     7.629
58        0.0009717   0.004046  5.208E-005       5.36 6.764E-005     6.961
59          0.00107   0.004455  5.383E-005      5.031 7.889E-005     7.373
60         0.001054   0.004388  5.338E-005      5.065 7.72E-005     7.325
61         0.001008   0.004195  5.211E-005      5.171 7.245E-005      7.19
62        0.0008819   0.003672  4.775E-005      5.414 6.496E-005     7.365
63        0.0009099   0.003789  5.009E-005      5.505 6.96E-005     7.649
64        0.0009717   0.004046  5.209E-005      5.361 6.763E-005      6.96
65         0.001072   0.004465  5.381E-005      5.017 7.893E-005     7.359
66         0.001072   0.004465  5.559E-005      5.184 8.201E-005     7.647
67         0.001054   0.004388  5.338E-005      5.065 7.72E-005     7.325
68         0.001008   0.004195  5.211E-005      5.171 7.245E-005      7.19
69        0.0008819   0.003672  4.775E-005      5.414 6.496E-005     7.365
70        0.0009104   0.003791  5.044E-005      5.541 7.027E-005     7.718
71        0.0009717   0.004046  5.211E-005      5.362 6.761E-005     6.958
72         0.001103   0.004591  5.351E-005      4.853 7.944E-005     7.205
73         0.001073   0.004468  5.604E-005      5.222 8.278E-005     7.714
74         0.001073   0.004468  5.604E-005      5.222 8.278E-005     7.714
75         0.001054   0.004388  5.338E-005      5.065 7.72E-005     7.325
76         0.001008   0.004195  5.211E-005      5.171 7.245E-005      7.19
77        0.0008819   0.003672  4.775E-005      5.414 6.496E-005     7.365
78        0.0009719   0.004046  5.22E-005      5.371 6.752E-005     6.947
79         0.001113   0.004634  5.34E-005      4.798 7.965E-005     7.156
80         0.001054   0.004388  5.338E-005      5.065 7.72E-005     7.325
81         0.001008   0.004195  5.211E-005      5.171 7.245E-005      7.19
82        0.0008819   0.003672  4.775E-005      5.414 6.496E-005     7.365
83        0.0009725   0.004049  5.254E-005      5.402 6.716E-005     6.906
84         0.001115   0.004644  5.338E-005      4.786 7.97E-005     7.146
85         0.001054   0.004388  5.338E-005      5.065 7.72E-005     7.325
86         0.001008   0.004195  5.211E-005      5.171 7.245E-005      7.19
87        0.0008819   0.003672  4.775E-005      5.414 6.496E-005     7.365
88          0.00112   0.004663  5.333E-005      4.762 7.98E-005     7.125
89         0.001054   0.004388  5.338E-005      5.065 7.72E-005     7.325
90         0.001008   0.004195  5.211E-005      5.171 7.245E-005      7.19
91        0.0008819   0.003672  4.775E-005      5.414 6.496E-005     7.365
92         0.001124   0.004681  5.329E-005       4.74 7.99E-005     7.106
93         0.001008   0.004195  5.211E-005      5.171 7.245E-005      7.19
94        0.0008819   0.003672  4.775E-005      5.414 6.496E-005     7.365
95         0.001127   0.004692  5.327E-005      4.727 7.996E-005     7.095
96         0.001008   0.004195  5.211E-005      5.171 7.245E-005      7.19
97        0.0008819   0.003672  4.775E-005      5.414 6.496E-005     7.365
98         0.001129   0.004699  5.325E-005      4.718    8E-005     7.088
99         0.001008   0.004195  5.211E-005      5.171 7.245E-005      7.19
100       0.0008819   0.003672  4.775E-005      5.414 6.496E-005     7.365
101        0.001131   0.004709  5.323E-005      4.706 8.005E-005     7.078
102        0.001008   0.004195  5.211E-005      5.171 7.245E-005      7.19
103       0.0008819   0.003672  4.775E-005      5.414 6.496E-005     7.365
104        0.001131   0.004709  5.318E-005      4.702 8.003E-005     7.075
105        0.001132   0.004714  5.325E-005      4.702 8.013E-005     7.077
106        0.001008   0.004195  5.211E-005      5.171 7.245E-005      7.19
107        0.001131    0.00471  5.313E-005      4.696 8.001E-005     7.072
108        0.001133   0.004718  5.326E-005        4.7 8.018E-005     7.076
109        0.001008   0.004195  5.211E-005      5.171 7.245E-005      7.19
110        0.001132   0.004711  5.307E-005       4.69 7.998E-005     7.068
111        0.001163   0.004842  5.374E-005      4.621 8.204E-005     7.054
112        0.001008   0.004195  5.211E-005      5.171 7.245E-005      7.19
113        0.001132   0.004712  5.297E-005       4.68 7.993E-005     7.062
114        0.001166   0.004855  5.379E-005      4.613 8.223E-005     7.052
115        0.001008   0.004195  5.211E-005      5.171 7.245E-005      7.19
116        0.001132   0.004714  5.285E-005      4.668 7.988E-005     7.055
117        0.001166   0.004857  5.36E-005      4.595 8.218E-005     7.045
118        0.001179   0.004908  5.488E-005      4.655 8.314E-005     7.052
119        0.001008   0.004195  5.211E-005      5.171 7.245E-005      7.19
120        0.001133   0.004715  5.277E-005      4.659 7.984E-005     7.049
121        0.001166   0.004857  5.36E-005      4.595 8.218E-005     7.045
122        0.001167   0.004858  5.351E-005      4.587 8.215E-005     7.042
123        0.001202   0.005005  5.689E-005      4.732 8.478E-005     7.052
124        0.001008   0.004195  5.211E-005      5.171 7.245E-005      7.19
125        0.001133   0.004717  5.264E-005      4.646 7.978E-005     7.042
126        0.001166   0.004857  5.36E-005      4.595 8.218E-005     7.045
127        0.001168   0.004862  5.308E-005      4.546 8.204E-005     7.025
128        0.001213   0.005049  5.781E-005      4.767 8.552E-005     7.052
129        0.001008   0.004195  5.211E-005      5.171 7.245E-005      7.19
130        0.001133   0.004719  5.251E-005      4.633 7.972E-005     7.034
131        0.001166   0.004857  5.36E-005      4.595 8.218E-005     7.045
132        0.001168   0.004863  5.306E-005      4.543 8.267E-005     7.078
133         0.00117   0.004873  5.15E-005        4.4 8.114E-005     6.933
134        0.001216   0.005062  5.809E-005      4.778 8.574E-005     7.052
135        0.001008   0.004195  5.211E-005      5.171 7.245E-005      7.19
136        0.001134   0.004721  5.239E-005       4.62 7.966E-005     7.026
137        0.001166   0.004857  5.36E-005      4.595 8.218E-005     7.045
138        0.001168   0.004863  5.305E-005      4.542 8.272E-005     7.082
139        0.001172    0.00488  5.032E-005      4.293 8.047E-005     6.865
140        0.001219   0.005077  5.84E-005       4.79 8.599E-005     7.053
141        0.001008   0.004195  5.211E-005      5.171 7.245E-005      7.19
142        0.001135   0.004724  5.218E-005      4.599 7.957E-005     7.013
143        0.001166   0.004857  5.36E-005      4.595 8.218E-005     7.045
144        0.001168   0.004863  5.305E-005      4.542 8.277E-005     7.087
145        0.001173   0.004886  4.953E-005      4.221 8.002E-005      6.82
146        0.001223   0.005091  5.87E-005      4.801 8.623E-005     7.053
147        0.001008   0.004195  5.211E-005      5.171 7.245E-005      7.19
148        0.001138   0.004738  5.123E-005      4.502 7.912E-005     6.953
149        0.001166   0.004857  5.36E-005      4.595 8.218E-005     7.045
150        0.001168   0.004863  5.305E-005      4.542 8.282E-005      7.09
151        0.001174   0.004888  4.897E-005      4.171 7.984E-005       6.8
152        0.001175   0.004892  5.015E-005      4.268 7.962E-005     6.776
153        0.001227   0.005107  5.905E-005      4.814 8.65E-005     7.053
154        0.001008   0.004195  5.211E-005      5.171 7.245E-005      7.19
155        0.001139   0.004741  5.103E-005      4.481 7.902E-005      6.94
156        0.001166   0.004857  5.36E-005      4.595 8.218E-005     7.045
157        0.001168   0.004863  5.305E-005      4.542 8.288E-005     7.096
158        0.001176   0.004895  4.747E-005      4.037 7.938E-005     6.752
159        0.001175   0.004892  5.019E-005      4.271 7.959E-005     6.774
160        0.001228   0.005111  5.915E-005      4.818 8.658E-005     7.053
161        0.001008   0.004195  5.211E-005      5.171 7.245E-005      7.19
162         0.00114   0.004749  5.187E-005      4.548 7.849E-005     6.882
163        0.001141   0.004751  5.039E-005      4.416 7.887E-005     6.912
164        0.001166   0.004857  5.36E-005      4.595 8.218E-005     7.045
165        0.001168   0.004863  5.305E-005      4.541 8.296E-005     7.102
166        0.001176   0.004897  4.695E-005      3.991 7.924E-005     6.736
167        0.001175   0.004893  5.022E-005      4.274 7.957E-005     6.771
168        0.001234   0.005138  5.972E-005       4.84 8.703E-005     7.053
169        0.001008   0.004195  5.211E-005      5.171 7.245E-005      7.19
170        0.001141    0.00475  5.203E-005      4.561 7.84E-005     6.872
171        0.001144   0.004764  4.954E-005       4.33 7.866E-005     6.875
172        0.001166   0.004857  5.36E-005      4.595 8.218E-005     7.045
173        0.001168   0.004864  5.305E-005      4.541 8.302E-005     7.107
174        0.001176   0.004897  4.695E-005      3.991 7.924E-005     6.736
175        0.001177   0.004901  4.561E-005      3.874 7.867E-005     6.683
176        0.001175   0.004893  5.024E-005      4.275 7.957E-005      6.77
177        0.001238   0.005152  6.005E-005      4.852 8.729E-005     7.053
178        0.001142   0.004753  5.238E-005      4.588 7.822E-005     6.852
179        0.001144   0.004765  4.959E-005      4.333 7.868E-005     6.875
180        0.001145   0.004766  4.878E-005      4.262 7.83E-005     6.841
181        0.001166   0.004857  5.36E-005      4.595 8.218E-005     7.045
182        0.001168   0.004864  5.304E-005      4.541 8.309E-005     7.113
183        0.001176   0.004897  4.695E-005      3.991 7.924E-005     6.736
184        0.001177   0.004902  4.546E-005      3.862 7.861E-005     6.677
185        0.001175   0.004893  5.027E-005      4.277 7.955E-005     6.768
186         0.00124   0.005164  6.029E-005      4.861 8.748E-005     7.054
187        0.001146    0.00477  4.981E-005      4.347 7.878E-005     6.877
188        0.001147   0.004775  4.567E-005      3.982 7.693E-005     6.707
189        0.001166   0.004857  5.36E-005      4.595 8.218E-005     7.045
190        0.001168   0.004864  5.304E-005      4.541 8.315E-005     7.118
191        0.001176   0.004897  4.695E-005      3.991 7.924E-005     6.736
192        0.001176   0.004897  4.695E-005      3.991 7.924E-005     6.736
193        0.001177   0.004902  4.532E-005      3.849 7.855E-005     6.672
194        0.001175   0.004894  5.035E-005      4.284 7.95E-005     6.763
195        0.001243   0.005173  6.051E-005       4.87 8.765E-005     7.054
196        0.001148   0.004779  5.021E-005      4.375 7.898E-005     6.881
197        0.001147   0.004776  4.539E-005      3.957 7.691E-005     6.705
198        0.001147   0.004776  4.548E-005      3.964 7.679E-005     6.694
199        0.001166   0.004857  5.36E-005      4.595 8.218E-005     7.045
200        0.001168   0.004864  5.304E-005       4.54 8.322E-005     7.124
201        0.001176   0.004897  4.695E-005      3.991 7.924E-005     6.736
202        0.001176   0.004897  4.695E-005      3.991 7.924E-005     6.736
203        0.001177   0.004903  4.521E-005       3.84 7.851E-005     6.667
204        0.001176   0.004895  5.04E-005      4.287 7.947E-005      6.76
205        0.001246   0.005186  6.078E-005       4.88 8.786E-005     7.054
206        0.001148   0.004781  5.051E-005      4.399 7.957E-005     6.929
207        0.001148   0.004781  5.014E-005      4.367 7.882E-005     6.865
208        0.001147   0.004777  4.469E-005      3.895 7.687E-005     6.699
209        0.001147   0.004776  4.545E-005      3.962 7.677E-005     6.693
210        0.001166   0.004857  5.36E-005      4.595 8.218E-005     7.045
211        0.001168   0.004864  5.304E-005       4.54 8.333E-005     7.133
212        0.001176   0.004897  4.695E-005      3.991 7.924E-005     6.736
213        0.001178   0.004903  4.512E-005      3.832 7.847E-005     6.664
214        0.001176   0.004895  5.044E-005       4.29 7.945E-005     6.758
215        0.001251   0.005208  6.128E-005      4.899 8.825E-005     7.054
216         0.00115   0.004788  5.152E-005       4.48 8.152E-005     7.089
217        0.001149   0.004784  5.001E-005      4.353 7.854E-005     6.836
218        0.001147   0.004776  4.543E-005       3.96 7.676E-005     6.691
219        0.001166   0.004857  5.36E-005      4.595 8.218E-005     7.045
220        0.001168   0.004864  5.303E-005      4.539 8.361E-005     7.157
221        0.001176   0.004897  4.695E-005      3.991 7.924E-005     6.736
222        0.001178   0.004903  4.493E-005      3.815 7.839E-005     6.657
223        0.001176   0.004896  5.05E-005      4.295 7.942E-005     6.754
224        0.001256   0.005228  6.173E-005      4.916 8.859E-005     7.055
225        0.001151   0.004791  5.196E-005      4.516 8.236E-005     7.157
226        0.001149   0.004785  4.997E-005      4.348 7.844E-005     6.826
227        0.001147   0.004776  4.541E-005      3.958 7.674E-005      6.69
228        0.001168   0.004865  5.303E-005      4.539 8.364E-005     7.159
229        0.001176   0.004897  4.695E-005      3.991 7.924E-005     6.736
230        0.001178   0.004904  4.478E-005      3.802 7.833E-005     6.651
231        0.001176   0.004896  5.054E-005      4.298 7.94E-005     6.752
232        0.001259   0.005242  6.203E-005      4.927 8.882E-005     7.055
233        0.001153     0.0048  5.203E-005      4.514 7.763E-005     6.735
234        0.001149   0.004785  4.997E-005      4.348 7.844E-005     6.826
235        0.001147   0.004776  4.538E-005      3.956 7.672E-005     6.688
236        0.001168   0.004865  5.303E-005      4.539 8.365E-005      7.16
237        0.001176   0.004897  4.695E-005      3.991 7.924E-005     6.736
238        0.001178   0.004904  4.468E-005      3.794 7.829E-005     6.647
239        0.001176   0.004896  5.056E-005      4.299 7.939E-005     6.751
240        0.001261   0.005251  6.223E-005      4.934 8.897E-005     7.055
241        0.001153   0.004802  5.235E-005      4.539 7.754E-005     6.723
242        0.001147   0.004776  4.535E-005      3.953 7.67E-005     6.686
243        0.001168   0.004865  5.303E-005      4.539 8.366E-005     7.161
244        0.001176   0.004897  4.695E-005      3.991 7.924E-005     6.736
245        0.001178   0.004904  4.458E-005      3.785 7.825E-005     6.643
246        0.001177   0.004899  5.083E-005      4.321 7.925E-005     6.736
247        0.001266    0.00527  6.266E-005       4.95 8.93E-005     7.056
248        0.001154   0.004805  5.284E-005      4.579 7.74E-005     6.707
249        0.001154   0.004805  5.284E-005      4.579 7.74E-005     6.707
250        0.001147   0.004777  4.53E-005      3.949 7.667E-005     6.683
251        0.001168   0.004865  5.303E-005      4.539 8.367E-005     7.162
252        0.001176   0.004897  4.695E-005      3.991 7.924E-005     6.736
253        0.001178   0.004905  4.443E-005      3.771 7.819E-005     6.637
254        0.001177     0.0049  5.092E-005      4.327 7.921E-005     6.731
255        0.001266   0.005271  6.268E-005      4.951 9.005E-005     7.114
256        0.001269   0.005282  6.29E-005      4.958 8.94E-005     7.047
257        0.001147   0.004777  4.513E-005      3.933 7.655E-005     6.671
258        0.001168   0.004865  5.303E-005      4.539 8.369E-005     7.163
259        0.001176   0.004897  4.695E-005      3.991 7.924E-005     6.736
260        0.001178   0.004906  4.386E-005      3.722 7.797E-005     6.616
261        0.001177     0.0049  5.094E-005      4.328 7.92E-005      6.73
262        0.001266   0.005271  6.268E-005      4.951 9.016E-005     7.122
263         0.00128   0.005328  6.381E-005      4.986 8.978E-005     7.015
264        0.001148    0.00478  4.428E-005      3.857 7.595E-005     6.615
265        0.001168   0.004865  5.303E-005      4.539 8.371E-005     7.165
266        0.001176   0.004897  4.695E-005      3.991 7.924E-005     6.736
267        0.001179   0.004907  4.373E-005      3.711 7.792E-005     6.612
268        0.001177   0.004902  5.117E-005      4.347 7.91E-005     6.718
269        0.001177     0.0049  5.094E-005      4.329 7.92E-005      6.73
270        0.001266   0.005271  6.268E-005      4.951 9.02E-005     7.125
271         0.00128   0.005331  6.312E-005       4.93 8.92E-005     6.966
272        0.001283   0.005344  6.419E-005      5.002 9.002E-005     7.014
273        0.001168   0.004865  5.303E-005      4.539 8.374E-005     7.167
274        0.001176   0.004897  4.695E-005      3.991 7.924E-005     6.736
275        0.001179   0.004907  4.367E-005      3.706 7.789E-005     6.609
276        0.001178   0.004904  5.141E-005      4.365  7.9E-005     6.707
277        0.001177     0.0049  5.095E-005       4.33 7.919E-005     6.729
278        0.001266   0.005271  6.268E-005      4.951 9.026E-005      7.13
279         0.00128   0.005331  6.307E-005      4.926 8.916E-005     6.963
280        0.001297   0.005398  6.559E-005      5.058 9.091E-005     7.012
281        0.001168   0.004865  5.303E-005      4.538 8.385E-005     7.176
282        0.001176   0.004897  4.695E-005      3.991 7.924E-005     6.736
283        0.001179   0.004907  4.363E-005      3.702 7.788E-005     6.608
284        0.001177     0.0049  5.096E-005       4.33 7.919E-005     6.729
285        0.001266   0.005271  6.269E-005      4.951 9.035E-005     7.136
286         0.00128   0.005331  6.303E-005      4.922 8.912E-005      6.96
287        0.001299   0.005408  6.649E-005       5.12 9.207E-005     7.089
288        0.001299   0.005407  6.547E-005      5.042 9.07E-005     6.985
289        0.001169   0.004866  5.302E-005      4.537 8.441E-005     7.223
290        0.001176   0.004897  4.695E-005      3.991 7.924E-005     6.736
291        0.001179   0.004908  4.349E-005      3.689 7.778E-005     6.598
292        0.001179   0.004907  4.362E-005      3.701 7.788E-005     6.608
293        0.001177     0.0049  5.097E-005      4.331 7.919E-005     6.728
294        0.001266   0.005271  6.269E-005      4.952 9.043E-005     7.143
295        0.001281   0.005332  6.297E-005      4.917 8.907E-005     6.956
296          0.0013   0.005412  6.691E-005      5.148 9.26E-005     7.124
297        0.001307   0.005441  6.498E-005      4.972 8.98E-005     6.871
298        0.001179   0.004908  4.342E-005      3.683 7.773E-005     6.594
299        0.001179   0.004907  4.36E-005        3.7 7.788E-005     6.608
300        0.001177     0.0049  5.098E-005      4.332 7.918E-005     6.728
301        0.001266   0.005271  6.269E-005      4.952 9.049E-005     7.147
302        0.001281   0.005333  6.271E-005      4.896 8.885E-005     6.937
303        0.001306   0.005439  6.964E-005      5.331 9.607E-005     7.354
304        0.001309   0.005449  6.487E-005      4.957 8.96E-005     6.847
305        0.001179   0.004908  4.331E-005      3.673 7.765E-005     6.587
306        0.001179   0.004907  4.359E-005      3.699 7.788E-005     6.608
307        0.001177   0.004901  5.103E-005      4.336 7.916E-005     6.725
308        0.001266   0.005271  6.269E-005      4.952 9.056E-005     7.153
309        0.001281   0.005333  6.266E-005      4.892 8.881E-005     6.934
310        0.001307   0.005441  6.984E-005      5.344 9.633E-005     7.371
311        0.001309   0.005452  6.483E-005      4.952 8.954E-005     6.838
312        0.001179   0.004909  4.309E-005      3.654 7.749E-005     6.573
313        0.001179   0.004907  4.357E-005      3.696 7.788E-005     6.608
314        0.001178   0.004903  5.127E-005      4.354 7.906E-005     6.714
315        0.001266   0.005272  6.27E-005      4.952 9.064E-005     7.159
316        0.001281   0.005333  6.262E-005      4.889 8.878E-005     6.931
317        0.001307   0.005442  6.993E-005       5.35 9.655E-005     7.387
318        0.001315   0.005473  7.254E-005      5.518 9.811E-005     7.463
319         0.00131   0.005453  6.482E-005      4.949 8.95E-005     6.834
320         0.00118   0.004912  4.244E-005      3.598 7.704E-005     6.531
321        0.001179   0.004907  4.347E-005      3.688 7.788E-005     6.607
322        0.001266   0.005272  6.27E-005      4.952 9.073E-005     7.166
323        0.001281   0.005333  6.258E-005      4.885 8.874E-005     6.928
324        0.001308   0.005445  7.039E-005      5.383 9.769E-005     7.471
325        0.001318   0.005489  7.383E-005      5.601 9.897E-005     7.508
326         0.00131   0.005454  6.48E-005      4.947 8.947E-005      6.83
327        0.001179   0.004908  4.313E-005      3.659 7.787E-005     6.606
328        0.001266   0.005272  6.27E-005      4.952 9.079E-005      7.17
329        0.001281   0.005333  6.253E-005      4.882 8.871E-005     6.925
330        0.001308   0.005446  7.055E-005      5.394 9.809E-005       7.5
331         0.00132   0.005495  7.237E-005      5.484 9.769E-005     7.402
332        0.001325   0.005516  7.693E-005      5.807 0.0001018     7.685
333         0.00131   0.005455  6.478E-005      4.944 8.944E-005     6.826
334        0.001266   0.005272  6.271E-005      4.953 9.102E-005     7.189
335        0.001281   0.005335  6.216E-005      4.851 8.839E-005     6.899
336        0.001308   0.005448  7.091E-005       5.42 9.896E-005     7.563
337         0.00132   0.005497  7.18E-005      5.438 9.718E-005     7.361
338        0.001325   0.005517  7.79E-005      5.879 0.0001007     7.602
339        0.001326    0.00552  7.741E-005      5.838 0.0001026     7.735
340         0.00131   0.005456  6.477E-005      4.942 8.941E-005     6.823
341        0.001266   0.005272  6.272E-005      4.953 9.112E-005     7.196
342        0.001282   0.005338  6.139E-005      4.789 8.776E-005     6.845
343        0.001309   0.005448  7.093E-005      5.421 9.93E-005     7.589
344        0.001309   0.005448  7.104E-005      5.429 9.913E-005     7.576
345        0.001325   0.005518  7.839E-005      5.915 0.0001002      7.56
346        0.001327   0.005524  7.782E-005      5.865 0.0001032     7.778
347        0.001311   0.005457  6.475E-005       4.94 8.939E-005      6.82
348        0.001266   0.005272  6.272E-005      4.953 9.115E-005     7.198
349        0.001309   0.005449  7.096E-005      5.422 9.981E-005     7.627
350        0.001309   0.005448  7.106E-005       5.43 9.916E-005     7.577
351        0.001325   0.005518  7.844E-005      5.918 0.0001001     7.556
352        0.001327   0.005527  7.81E-005      5.884 0.0001036     7.808
353        0.001311   0.005458  6.474E-005      4.939 8.937E-005     6.818
354        0.001266   0.005272  6.272E-005      4.953 9.117E-005       7.2
355        0.001309   0.005449  7.108E-005      5.432 9.918E-005     7.579
356        0.001325   0.005518  7.846E-005       5.92 0.0001001     7.554
357        0.001328    0.00553  7.847E-005      5.908 0.0001042     7.846
358        0.001311   0.005459  6.473E-005      4.938 8.936E-005     6.816
359        0.001266   0.005272  6.272E-005      4.953 9.119E-005     7.201
360        0.001309   0.005449  7.11E-005      5.433 9.921E-005     7.581
361        0.001325   0.005518  7.847E-005      5.921 0.0001001     7.553
362        0.001329   0.005532  7.87E-005      5.922 0.0001046     7.869
363        0.001311   0.005459  6.472E-005      4.936 8.934E-005     6.813
364        0.001266   0.005272  6.272E-005      4.953 9.12E-005     7.202
365        0.001309   0.005449  7.112E-005      5.434 9.923E-005     7.583
366        0.001325   0.005518  7.848E-005      5.922 0.0001001     7.552
367         0.00133   0.005536  7.905E-005      5.945 0.0001051     7.906
368        0.001311    0.00546  6.471E-005      4.935 8.932E-005     6.811
369        0.001266   0.005272  6.272E-005      4.953 9.121E-005     7.203
370        0.001309   0.005449  7.114E-005      5.436 9.927E-005     7.585
371        0.001325   0.005518  7.85E-005      5.923 0.0001001     7.551
372         0.00133   0.005539  7.939E-005      5.968 0.0001057     7.942
373        0.001312   0.005465  6.465E-005      4.926 8.92E-005     6.796
374        0.001266   0.005272  6.272E-005      4.953 9.124E-005     7.205
375        0.001309   0.005449  7.118E-005      5.439 9.931E-005     7.588
376        0.001325   0.005518  7.852E-005      5.925 0.0001001     7.549
377        0.001331   0.005543  7.979E-005      5.993 0.0001063     7.983
378         0.00132   0.005497  6.458E-005      4.892 8.836E-005     6.693
379        0.001313   0.005465  6.442E-005      4.908 8.917E-005     6.794
380        0.001266   0.005272  6.273E-005      4.954 9.133E-005     7.213
381        0.001309    0.00545  7.138E-005      5.453 9.957E-005     7.607
382        0.001325   0.005518  7.854E-005      5.926    0.0001     7.548
383        0.001332   0.005545  8.007E-005      6.012 0.0001067     8.013
384        0.001328   0.005527  6.452E-005       4.86 8.756E-005     6.595
385        0.001313   0.005467  6.299E-005      4.797 8.902E-005     6.779
386        0.001313   0.005465  6.442E-005      4.908 8.917E-005     6.794
387        0.001266   0.005273  6.275E-005      4.955 9.17E-005     7.241
388         0.00131   0.005453  7.206E-005      5.502 0.0001005     7.671
389        0.001325   0.005518  7.855E-005      5.927    0.0001     7.546
390        0.001333   0.005549  8.041E-005      6.034 0.0001072     8.048
391        0.001328   0.005529  6.451E-005      4.858 8.752E-005     6.591
392        0.001313   0.005468  6.247E-005      4.757 8.897E-005     6.774
393        0.001313   0.005465  6.442E-005      4.908 8.917E-005     6.794
394        0.001325   0.005518  7.858E-005      5.929 9.999E-005     7.544
395        0.001334   0.005553  8.09E-005      6.065  0.000108     8.098
396        0.001329   0.005534  6.321E-005      4.756 8.639E-005       6.5
397        0.001333   0.005551  6.487E-005      4.865 8.753E-005     6.565
398        0.001313   0.005468  6.242E-005      4.753 8.897E-005     6.774
399        0.001313   0.005465  6.442E-005      4.908 8.917E-005     6.794
400        0.001325   0.005518  7.866E-005      5.935 9.989E-005     7.537
401        0.001335   0.005557  8.126E-005      6.089 0.0001086     8.136
402        0.001329   0.005534  6.31E-005      4.747 8.629E-005     6.492
403        0.001336   0.005562  6.504E-005      4.869 8.754E-005     6.553
404        0.001313   0.005469  6.238E-005       4.75 8.897E-005     6.774
405        0.001313   0.005465  6.442E-005      4.908 8.917E-005     6.794
406        0.001326   0.005519  7.919E-005      5.974 9.932E-005     7.493
407        0.001335    0.00556  8.161E-005      6.111 0.0001091     8.172
408        0.001329   0.005535  6.303E-005      4.742 8.623E-005     6.487
409        0.001344   0.005595  6.557E-005      4.879 8.76E-005     6.519
410        0.001336   0.005562  6.504E-005      4.869 8.754E-005     6.553
411        0.001313   0.005469  6.235E-005      4.747 8.896E-005     6.773
412        0.001313   0.005465  6.442E-005      4.908 8.917E-005     6.794
413        0.001336   0.005563  8.195E-005      6.133 0.0001097     8.208
414        0.001329   0.005535  6.298E-005      4.738 8.619E-005     6.484
415        0.001355   0.005642  6.632E-005      4.894 8.776E-005     6.476
416        0.001336   0.005562  6.504E-005      4.869 8.754E-005     6.553
417        0.001314   0.005469  6.219E-005      4.734 8.895E-005     6.772
418        0.001313   0.005465  6.442E-005      4.908 8.917E-005     6.794
419        0.001337   0.005567  8.237E-005       6.16 0.0001103     8.251
420        0.001329   0.005535  6.291E-005      4.732 8.613E-005     6.479
421        0.001357   0.005652  6.648E-005      4.897 8.78E-005     6.468
422        0.001336   0.005562  6.504E-005      4.869 8.754E-005     6.553
423        0.001314   0.005469  6.215E-005      4.731 8.895E-005     6.772
424        0.001313   0.005465  6.442E-005      4.908 8.917E-005     6.794
425        0.001339   0.005574  8.306E-005      6.204 0.0001114     8.322
426        0.001337   0.005567  8.237E-005       6.16 0.0001103     8.251
427         0.00133   0.005536  6.266E-005      4.713 8.591E-005     6.461
428        0.001358   0.005654  6.652E-005      4.898 8.781E-005     6.466
429        0.001336   0.005562  6.504E-005      4.869 8.754E-005     6.553
430        0.001314   0.005469  6.211E-005      4.728 8.894E-005     6.771
431        0.001313   0.005465  6.442E-005      4.908 8.917E-005     6.794
432        0.001344   0.005596  8.538E-005      6.353 0.0001151     8.561
433        0.001339   0.005574  8.306E-005      6.204 0.0001114     8.322
434         0.00133   0.005537  6.238E-005      4.691 8.567E-005     6.442
435        0.001358   0.005656  6.654E-005      4.898 8.782E-005     6.465
436        0.001336   0.005562  6.504E-005      4.869 8.754E-005     6.553
437        0.001314   0.005469  6.207E-005      4.726 8.894E-005     6.771
438        0.001313   0.005465  6.442E-005      4.908 8.917E-005     6.794
439        0.001352   0.005627  8.868E-005      6.562 0.0001202     8.897
440        0.001344   0.005596  8.538E-005      6.353 0.0001151     8.561
441         0.00133   0.005538  6.223E-005      4.679 8.554E-005     6.432
442        0.001359   0.005657  6.656E-005      4.899 8.782E-005     6.464
443        0.001336   0.005562  6.504E-005      4.869 8.754E-005     6.553
444        0.001314   0.005469  6.203E-005      4.722 8.894E-005     6.771
445        0.001313   0.005465  6.442E-005      4.908 8.917E-005     6.794
446        0.001357    0.00565  9.104E-005       6.71  0.000124     9.137
447        0.001352   0.005627  8.868E-005      6.562 0.0001202     8.897
448         0.00133   0.005538  6.208E-005      4.667 8.542E-005     6.422
449        0.001359   0.005658  6.657E-005      4.899 8.782E-005     6.463
450        0.001336   0.005562  6.504E-005      4.869 8.754E-005     6.553
451        0.001314   0.005469  6.188E-005      4.711 8.893E-005     6.769
452        0.001313   0.005465  6.442E-005      4.908 8.917E-005     6.794
453        0.001359   0.005656  9.176E-005      6.754 0.0001251     9.209
454        0.001357    0.00565  9.104E-005       6.71  0.000124     9.137
455         0.00133   0.005539  6.194E-005      4.656 8.53E-005     6.412
456        0.001359   0.005659  6.659E-005        4.9 8.783E-005     6.462
457        0.001336   0.005562  6.504E-005      4.869 8.754E-005     6.553
458        0.001314   0.005471  6.117E-005      4.656 8.888E-005     6.764
459        0.001313   0.005465  6.442E-005      4.908 8.917E-005     6.794
460        0.001363   0.005674  9.332E-005      6.848 0.0001274     9.346
461        0.001359   0.005656  9.176E-005      6.754 0.0001251     9.209
462        0.001359   0.005659  9.224E-005      6.787 0.0001257     9.251
463         0.00133    0.00554  6.171E-005      4.638 8.51E-005     6.396
464        0.001359    0.00566  6.661E-005        4.9 8.784E-005     6.461
465        0.001336   0.005562  6.504E-005      4.869 8.754E-005     6.553
466        0.001313   0.005465  6.442E-005      4.908 8.917E-005     6.794
467        0.001367   0.005694  9.504E-005       6.95 0.0001299     9.498
468        0.001363   0.005674  9.332E-005      6.848 0.0001274     9.346
469        0.001363   0.005674  9.332E-005      6.848 0.0001274     9.346
470        0.001359   0.005659  9.232E-005      6.792 0.0001258     9.257
471        0.001331    0.00554  6.155E-005      4.626 8.497E-005     6.385
472         0.00136   0.005661  6.663E-005        4.9 8.784E-005      6.46
473        0.001336   0.005562  6.504E-005      4.869 8.754E-005     6.553
474        0.001313   0.005465  6.442E-005      4.908 8.917E-005     6.794
475        0.001369   0.005701  9.568E-005      6.988 0.0001308     9.553
476        0.001367   0.005694  9.504E-005       6.95 0.0001299     9.498
477        0.001359   0.005659  9.235E-005      6.795 0.0001259     9.261
478        0.001331   0.005541  6.144E-005      4.617 8.487E-005     6.378
479         0.00136   0.005663  6.665E-005      4.901 8.785E-005     6.459
480        0.001336   0.005562  6.504E-005      4.869 8.754E-005     6.553
481        0.001313   0.005465  6.442E-005      4.908 8.917E-005     6.794
482        0.001372   0.005713  9.638E-005      7.025 0.0001309     9.541
483        0.001369   0.005701  9.568E-005      6.988 0.0001308     9.553
484        0.001371   0.005709   9.7E-005      7.074 0.0001342     9.789
485        0.001359   0.005659  9.238E-005      6.796 0.0001259     9.263
486        0.001331   0.005541  6.139E-005      4.613 8.482E-005     6.374
487         0.00136   0.005664  6.668E-005      4.901 8.785E-005     6.458
488        0.001336   0.005562  6.504E-005      4.869 8.754E-005     6.553
489        0.001313   0.005465  6.442E-005      4.908 8.917E-005     6.794
490        0.001376    0.00573  9.74E-005      7.078 0.0001311     9.523
491        0.001372   0.005713  9.638E-005      7.025 0.0001309     9.541
492        0.001371    0.00571  9.708E-005      7.079 0.0001343     9.796
493        0.001371    0.00571   9.7E-005      7.073 0.0001349     9.837
494        0.001359    0.00566  9.242E-005      6.799  0.000126     9.267
495        0.001331   0.005541  6.135E-005       4.61 8.48E-005     6.372
496        0.001361   0.005667  6.672E-005      4.902 8.787E-005     6.456
497        0.001336   0.005562  6.504E-005      4.869 8.754E-005     6.553
498        0.001313   0.005465  6.442E-005      4.908 8.917E-005     6.794
499        0.001379    0.00574  9.803E-005       7.11 0.0001312     9.514
500        0.001376    0.00573  9.74E-005      7.078 0.0001311     9.523
501        0.001371    0.00571  9.711E-005      7.082 0.0001344     9.798
502        0.001372    0.00571   9.7E-005      7.073 0.0001353     9.868
503        0.001359    0.00566  9.248E-005      6.803  0.000126     9.272
504        0.001331   0.005541  6.133E-005      4.608 8.478E-005      6.37
505        0.001378   0.005736  6.783E-005      4.924 8.829E-005     6.409
506        0.001336   0.005562  6.504E-005      4.869 8.754E-005     6.553
507        0.001313   0.005465  6.442E-005      4.908 8.917E-005     6.794
508        0.001379   0.005742  9.814E-005      7.116 0.0001312     9.512
509        0.001379    0.00574  9.803E-005       7.11 0.0001312     9.514
510        0.001371    0.00571  9.713E-005      7.083 0.0001344       9.8
511        0.001359    0.00566  9.252E-005      6.806 0.0001261     9.276
512        0.001331   0.005541  6.13E-005      4.606 8.475E-005     6.368
513        0.001378   0.005737  6.867E-005      4.984 8.745E-005     6.347
514         0.00138   0.005746  6.793E-005      4.923 8.856E-005     6.417
515        0.001336   0.005562  6.504E-005      4.869 8.754E-005     6.553
516         0.00138   0.005745  9.804E-005      7.105 0.0001305     9.457
517        0.001379   0.005742  9.814E-005      7.116 0.0001312     9.512
518        0.001381   0.005748  9.936E-005      7.197 0.0001327     9.615
519        0.001371    0.00571  9.715E-005      7.084 0.0001344     9.802
520        0.001359    0.00566  9.255E-005      6.808 0.0001261     9.278
521        0.001331   0.005541  6.127E-005      4.604 8.473E-005     6.366
522        0.001378   0.005738  6.941E-005      5.037 8.671E-005     6.292
523        0.001381   0.005751  6.798E-005      4.922 8.87E-005     6.422
524        0.001336   0.005562  6.504E-005      4.869 8.754E-005     6.553
525         0.00138   0.005747  9.797E-005      7.097   0.00013     9.416
526         0.00138   0.005745  9.804E-005      7.105 0.0001305     9.457
527        0.001381   0.005752  0.0001001      7.245 0.0001337     9.676
528        0.001371    0.00571  9.717E-005      7.085 0.0001344     9.803
529        0.001359    0.00566  9.258E-005       6.81 0.0001262      9.28
530        0.001331   0.005542  6.11E-005       4.59 8.458E-005     6.354
531        0.001381   0.005752  6.799E-005      4.921 8.872E-005     6.422
532        0.001336   0.005562  6.504E-005      4.869 8.754E-005     6.553
533        0.001381    0.00575  9.787E-005      7.086 0.0001293     9.362
534         0.00138   0.005747  9.797E-005      7.097   0.00013     9.416
535        0.001382   0.005755  0.0001007      7.283 0.0001344     9.725
536        0.001371    0.00571  9.718E-005      7.086 0.0001345     9.804
537         0.00136   0.005661  9.265E-005      6.815 0.0001263     9.287
538        0.001331   0.005543  6.079E-005      4.566 8.432E-005     6.333
539        0.001332   0.005545  6.021E-005      4.521 8.383E-005     6.294
540        0.001382   0.005753  6.799E-005      4.921 8.874E-005     6.423
541        0.001336   0.005562  6.504E-005      4.869 8.754E-005     6.553
542        0.001382   0.005753  9.78E-005      7.079 0.0001288     9.324
543        0.001381    0.00575  9.787E-005      7.086 0.0001293     9.362
544        0.001382   0.005756  0.0001009      7.299 0.0001347     9.745
545        0.001371    0.00571  9.723E-005       7.09 0.0001345     9.808
546         0.00136   0.005664  9.325E-005      6.855  0.000127     9.339
547        0.001332   0.005545  6.046E-005       4.54 8.403E-005      6.31
548        0.001382   0.005753   6.8E-005      4.921 8.876E-005     6.423
549        0.001336   0.005562  6.504E-005      4.869 8.754E-005     6.553
550        0.001383   0.005759  9.762E-005      7.058 0.0001275     9.218
551        0.001382   0.005753  9.78E-005      7.079 0.0001288     9.324
552        0.001382   0.005756  0.0001009      7.301 0.0001348     9.748
553        0.001383   0.005758  0.0001014      7.332 0.0001353     9.786
554        0.001372   0.005711  9.728E-005      7.093 0.0001346     9.812
555         0.00136   0.005664  9.328E-005      6.857 0.0001271     9.341
556        0.001333   0.005548  5.954E-005      4.468 8.326E-005     6.249
557        0.001382   0.005754  6.801E-005      4.921 8.877E-005     6.424
558        0.001336   0.005562  6.504E-005      4.869 8.754E-005     6.553
559        0.001384   0.005763  9.749E-005      7.043 0.0001265     9.143
560        0.001383   0.005759  9.762E-005      7.058 0.0001275     9.218
561        0.001382   0.005756  0.0001009      7.302 0.0001348     9.749
562        0.001383    0.00576  0.0001018      7.356 0.0001358     9.818
563        0.001372   0.005713  9.775E-005      7.124 0.0001352     9.851
564         0.00136   0.005664  9.331E-005      6.859 0.0001271     9.344
565        0.001382   0.005754  6.801E-005      4.921 8.879E-005     6.424
566        0.001336   0.005562  6.504E-005      4.869 8.754E-005     6.553
567        0.001384   0.005764  9.743E-005      7.038 0.0001264     9.134
568        0.001384   0.005763  9.749E-005      7.043 0.0001265     9.143
569        0.001385   0.005766  9.82E-005      7.091  0.000126     9.098
570        0.001382   0.005756   0.000101      7.304 0.0001348     9.751
571         0.00136   0.005664  9.333E-005      6.861 0.0001271     9.346
572        0.001382   0.005755  6.802E-005      4.921 8.88E-005     6.425
573        0.001384   0.005764  9.741E-005      7.037 0.0001264     9.132
574        0.001384   0.005764  9.743E-005      7.038 0.0001264     9.134
575        0.001385   0.005767  9.829E-005      7.097 0.0001259     9.093
576        0.001382   0.005756   0.000101      7.304 0.0001348     9.752
577         0.00136   0.005664  9.336E-005      6.862 0.0001272     9.348
578        0.001383   0.005758  6.804E-005       4.92 8.888E-005     6.427
579        0.001385   0.005767  9.699E-005      7.002 0.0001257     9.076
580        0.001384   0.005764  9.741E-005      7.037 0.0001264     9.132
581        0.001384   0.005764  9.741E-005      7.037 0.0001264     9.132
582        0.001385   0.005767  9.836E-005      7.101 0.0001259     9.089
583        0.001383   0.005756   0.000101      7.305 0.0001348     9.753
584         0.00136   0.005664  9.338E-005      6.864 0.0001272      9.35
585        0.001384   0.005761  6.819E-005      4.928 8.89E-005     6.425
586        0.001384   0.005764  6.813E-005      4.922 8.905E-005     6.433
587        0.001386    0.00577  9.669E-005      6.977 0.0001252     9.037
588        0.001385   0.005767  9.699E-005      7.002 0.0001257     9.076
589        0.001384   0.005764  9.741E-005      7.037 0.0001264     9.132
590        0.001385   0.005767  9.842E-005      7.106 0.0001258     9.085
591        0.001383   0.005756   0.000101      7.306 0.0001349     9.754
592         0.00136   0.005664  9.341E-005      6.866 0.0001272     9.353
593        0.001384   0.005761  6.82E-005      4.929 8.89E-005     6.425
594        0.001391   0.005792  6.854E-005      4.927 8.989E-005     6.462
595        0.001386   0.005772  9.661E-005      6.968 0.0001253     9.039
596        0.001386    0.00577  9.663E-005      6.973 0.0001251     9.027
597        0.001384   0.005764  9.741E-005      7.037 0.0001264     9.132
598        0.001386    0.00577  9.904E-005      7.146 0.0001254     9.048
599        0.001383   0.005757  0.0001011      7.312  0.000135     9.762
600        0.001361   0.005665  9.345E-005      6.868 0.0001273     9.356
601        0.001384   0.005761  6.82E-005      4.929 8.89E-005     6.425
602        0.001392   0.005798  6.706E-005      4.816 8.845E-005     6.352
603        0.001399   0.005823  6.937E-005       4.96 9.149E-005     6.541
604        0.001387   0.005775  9.654E-005      6.961 0.0001254     9.042
605        0.001386   0.005772  9.661E-005      6.968 0.0001253     9.039
606        0.001386   0.005772  9.661E-005      6.968 0.0001253     9.039
607        0.001388   0.005777  9.473E-005      6.827 0.0001232     8.881
608        0.001386    0.00577  9.663E-005      6.973 0.0001251     9.027
609        0.001384   0.005764  9.741E-005      7.037 0.0001264     9.132
610        0.001386   0.005771  9.932E-005      7.166 0.0001252     9.031
611        0.001383    0.00576  0.0001017      7.354 0.0001358     9.815
612        0.001361   0.005665  9.347E-005       6.87 0.0001273     9.358
613        0.001384   0.005761  6.82E-005      4.929 8.89E-005     6.425
614        0.001393   0.005801  6.628E-005      4.757 8.77E-005     6.295
615        0.001406   0.005853  7.016E-005      4.991 9.303E-005     6.618
616        0.001388   0.005777  9.672E-005       6.97 0.0001254      9.04
617        0.001387   0.005775  9.654E-005      6.961 0.0001254     9.042
618        0.001387   0.005775  9.654E-005      6.961 0.0001254     9.042
619        0.001388   0.005779  9.429E-005      6.793 0.0001228     8.847
620        0.001384   0.005764  9.741E-005      7.037 0.0001264     9.132
621        0.001386   0.005772  9.946E-005      7.175 0.0001251     9.023
622        0.001361   0.005665  9.356E-005      6.876 0.0001274     9.365
623        0.001384   0.005761  6.821E-005      4.929 8.89E-005     6.425
624        0.001406   0.005854  7.021E-005      4.993 9.305E-005     6.618
625        0.001408   0.005861  7.043E-005      5.003 9.348E-005     6.641
626        0.001388   0.005781  9.697E-005      6.984 0.0001255     9.039
627        0.001384   0.005764  9.741E-005      7.037 0.0001264     9.132
628        0.001386   0.005772  9.955E-005      7.181  0.000125     9.018
629        0.001361   0.005667  9.394E-005      6.902 0.0001279     9.399
630        0.001384   0.005761  6.821E-005       4.93 8.89E-005     6.425
631        0.001406   0.005854  7.022E-005      4.994 9.306E-005     6.618
632        0.001408   0.005863  7.049E-005      5.006 9.358E-005     6.646
633        0.001389   0.005782  9.704E-005      6.989 0.0001255     9.039
634        0.001384   0.005764  9.741E-005      7.037 0.0001264     9.132
635        0.001386   0.005773  9.969E-005       7.19 0.0001249      9.01
636        0.001384   0.005762  6.822E-005       4.93 8.89E-005     6.425
637        0.001406   0.005854  7.023E-005      4.994 9.306E-005     6.618
638        0.001408   0.005864  7.052E-005      5.007 9.363E-005     6.648
639        0.001389   0.005785  9.73E-005      7.003 0.0001256     9.039
640        0.001384   0.005764  9.741E-005      7.037 0.0001264     9.132
641        0.001387   0.005774  9.996E-005      7.208 0.0001247     8.995
642        0.001384   0.005762  6.823E-005      4.931 8.891E-005     6.425
643        0.001406   0.005855  7.024E-005      4.995 9.306E-005     6.618
644        0.001409   0.005865  7.055E-005      5.009 9.368E-005     6.651
645        0.001384   0.005764  9.741E-005      7.037 0.0001264     9.132
646        0.001387   0.005774     0.0001      7.213 0.0001247     8.991
647        0.001384   0.005762  6.824E-005      4.931 8.891E-005     6.425
648        0.001406   0.005855  7.026E-005      4.996 9.307E-005     6.618
649        0.001409   0.005866  7.059E-005       5.01 9.375E-005     6.654
650        0.001384   0.005764  9.741E-005      7.037 0.0001264     9.132
651        0.001387   0.005774  0.0001001      7.214 0.0001247     8.989
652        0.001384   0.005762  6.825E-005      4.931 8.891E-005     6.424
653        0.001406   0.005856  7.028E-005      4.997 9.308E-005     6.618
654        0.001409   0.005867  7.063E-005      5.012 9.381E-005     6.658
655        0.001384   0.005764  9.741E-005      7.037 0.0001264     9.132
656        0.001387   0.005774  0.0001001      7.215 0.0001247     8.988
657        0.001387   0.005775  0.0001001      7.215 0.0001247     8.989
658        0.001384   0.005762  6.825E-005      4.932 8.891E-005     6.424
659        0.001406   0.005856  7.03E-005      4.998 9.309E-005     6.618
660        0.001409   0.005868  7.067E-005      5.014 9.388E-005     6.661
661        0.001384   0.005764  9.741E-005      7.037 0.0001264     9.132
662        0.001387   0.005774  0.0001001      7.216 0.0001246     8.987
663        0.001387   0.005775  0.0001001      7.217 0.0001247     8.989
664        0.001384   0.005762  6.826E-005      4.932 8.891E-005     6.424
665        0.001407   0.005856  7.031E-005      4.999 9.309E-005     6.618
666         0.00141    0.00587  7.073E-005      5.017 9.399E-005     6.667
667        0.001384   0.005764  9.741E-005      7.037 0.0001264     9.132
668        0.001387   0.005774  0.0001001      7.218 0.0001246     8.986
669        0.001388   0.005777  0.0001002      7.222 0.0001247      8.99
670        0.001384   0.005762  6.827E-005      4.933 8.891E-005     6.424
671        0.001407   0.005857  7.033E-005          5 9.31E-005     6.619
672         0.00141   0.005871  7.085E-005      5.025 9.423E-005     6.683
673        0.001411   0.005874  7.071E-005      5.012 9.391E-005     6.657
674        0.001384   0.005764  9.741E-005      7.037 0.0001264     9.132
675        0.001387   0.005775  0.0001002      7.225 0.0001245     8.979
676        0.001388   0.005778  0.0001003      7.224 0.0001248      8.99
677        0.001384   0.005763  6.827E-005      4.933 8.891E-005     6.424
678        0.001407   0.005857  7.035E-005      5.001 9.311E-005     6.619
679         0.00141   0.005871  7.092E-005      5.029 9.437E-005     6.692
680        0.001417   0.005901  7.055E-005      4.978 9.346E-005     6.595
681        0.001384   0.005764  9.741E-005      7.037 0.0001264     9.132
682        0.001387   0.005775   0.000101       7.28 0.0001238     8.924
683        0.001384   0.005763  6.828E-005      4.933 8.891E-005     6.424
684        0.001407   0.005858  7.042E-005      5.004 9.313E-005     6.619
685         0.00141   0.005871  7.098E-005      5.034 9.45E-005     6.701
686        0.001422    0.00592  7.044E-005      4.954 9.315E-005     6.551
687        0.001384   0.005763  6.828E-005      4.934 8.891E-005     6.424
688        0.001408   0.005862  7.058E-005      5.014 9.321E-005     6.621
689         0.00141   0.005872  7.105E-005      5.038 9.463E-005      6.71
690        0.001424    0.00593  6.782E-005      4.762 9.052E-005     6.356
691        0.001433   0.005965  7.17E-005      5.004 9.517E-005     6.642
692        0.001384   0.005763  6.829E-005      4.934 8.892E-005     6.424
693         0.00141   0.005872  7.109E-005      5.041 9.473E-005     6.717
694        0.001424    0.00593  6.769E-005      4.753 9.04E-005     6.346
695        0.001425   0.005931  6.747E-005      4.737 9.018E-005      6.33
696        0.001433   0.005967  7.317E-005      5.106 9.381E-005     6.546
697        0.001435   0.005974  7.183E-005      5.006 9.59E-005     6.684
698        0.001384   0.005763  6.83E-005      4.934 8.892E-005     6.424
699         0.00141   0.005873  7.117E-005      5.046 9.489E-005     6.727
700        0.001424    0.00593  6.766E-005       4.75 9.036E-005     6.344
701        0.001425   0.005934  6.678E-005      4.686 8.948E-005     6.279
702        0.001433   0.005968  7.403E-005      5.165 9.304E-005     6.491
703        0.001437   0.005985  7.202E-005       5.01 9.709E-005     6.755
704        0.001384   0.005763  6.832E-005      4.936 8.892E-005     6.424
705        0.001411   0.005873  7.13E-005      5.054 9.515E-005     6.745
706        0.001424   0.005931  6.763E-005      4.748 9.033E-005     6.342
707        0.001444   0.006012  7.253E-005      5.022 0.0001003     6.943
708        0.001437   0.005985  7.202E-005       5.01 9.709E-005     6.755
709        0.001384   0.005764  6.835E-005      4.937 8.893E-005     6.424
710        0.001412   0.005879  7.228E-005      5.119 9.711E-005     6.878
711        0.001424   0.005931  6.762E-005      4.747 9.032E-005     6.341
712         0.00145   0.006038  7.161E-005      4.938 0.0001015     6.996
713        0.001445   0.006018  7.349E-005      5.085 0.0001014     7.019
714        0.001437   0.005985  7.202E-005       5.01 9.709E-005     6.755
715        0.001384   0.005764  6.836E-005      4.938 8.893E-005     6.424
716        0.001413   0.005884  7.311E-005      5.174 9.873E-005     6.986
717        0.001424   0.005931  6.76E-005      4.746 9.03E-005      6.34
718        0.001457   0.006065  7.069E-005      4.852 0.0001029     7.065
719        0.001445   0.006018  7.36E-005      5.092 0.0001016     7.027
720        0.001437   0.005985  7.202E-005       5.01 9.709E-005     6.755
721        0.001384   0.005764  6.836E-005      4.938 8.893E-005     6.424
722        0.001414   0.005885  7.338E-005      5.191 9.924E-005     7.021
723        0.001424   0.005931  6.759E-005      4.745 9.029E-005     6.339
724        0.001459   0.006073  7.038E-005      4.825 0.0001032     7.074
725         0.00146   0.006077  7.148E-005      4.897 0.0001038     7.114
726        0.001445   0.006018  7.364E-005      5.094 0.0001016     7.031
727        0.001437   0.005985  7.202E-005       5.01 9.709E-005     6.755
728        0.001384   0.005764  6.836E-005      4.938 8.893E-005     6.424
729        0.001414   0.005887  7.362E-005      5.207 9.97E-005     7.052
730        0.001424   0.005931  6.757E-005      4.744 9.027E-005     6.337
731        0.001461   0.006085  6.995E-005      4.787 0.0001035     7.086
732         0.00146   0.006079  7.159E-005      4.904  0.000104     7.121
733        0.001446   0.006018  7.368E-005      5.097 0.0001017     7.034
734        0.001437   0.005985  7.202E-005       5.01 9.709E-005     6.755
735        0.001384   0.005764  6.836E-005      4.938 8.893E-005     6.424
736        0.001414   0.005887  7.376E-005      5.216 9.996E-005     7.069
737        0.001424   0.005931  6.756E-005      4.743 9.026E-005     6.337
738        0.001465   0.006098  6.946E-005      4.743  0.000104       7.1
739         0.00146    0.00608  7.165E-005      4.907  0.000104     7.125
740        0.001446   0.006019  7.372E-005      5.099 0.0001017     7.037
741        0.001437   0.005985  7.202E-005       5.01 9.709E-005     6.755
742        0.001384   0.005764  6.837E-005      4.938 8.893E-005     6.424
743        0.001414   0.005888  7.386E-005      5.223 0.0001002     7.083
744        0.001424   0.005931  6.755E-005      4.742 9.025E-005     6.336
745        0.001467   0.006108  6.907E-005      4.708 0.0001043     7.112
746        0.001461   0.006082  7.183E-005      4.918 0.0001042     7.135
747         0.00146    0.00608  7.166E-005      4.908  0.000104     7.125
748        0.001446   0.006019  7.376E-005      5.102 0.0001018      7.04
749        0.001437   0.005985  7.202E-005       5.01 9.709E-005     6.755
750        0.001384   0.005764  6.837E-005      4.938 8.893E-005     6.424
751        0.001414   0.005888  7.395E-005      5.229 0.0001003     7.094
752        0.001424   0.005931  6.753E-005      4.741 9.023E-005     6.334
753        0.001468   0.006111  6.922E-005      4.716 0.0001051     7.163
754        0.001469   0.006116  6.713E-005       4.57 0.0001022     6.961
755        0.001461   0.006084  7.198E-005      4.926 0.0001044     7.145
756         0.00146    0.00608  7.166E-005      4.908  0.000104     7.125
757        0.001446   0.006019  7.38E-005      5.105 0.0001018     7.043
758        0.001437   0.005985  7.202E-005       5.01 9.709E-005     6.755
759        0.001384   0.005764  6.837E-005      4.938 8.893E-005     6.424
760        0.001414   0.005889  7.406E-005      5.236 0.0001005     7.108
761        0.001425   0.005931  6.75E-005      4.739 9.02E-005     6.332
762        0.001469   0.006114  6.942E-005      4.727 0.0001062     7.234
763         0.00147   0.006122  6.551E-005      4.456 0.0001005     6.835
764         0.00146    0.00608  7.167E-005      4.908  0.000104     7.125
765        0.001446   0.006019  7.385E-005      5.108 0.0001019     7.047
766        0.001437   0.005985  7.202E-005       5.01 9.709E-005     6.755
767        0.001385   0.005765  6.838E-005      4.939 8.893E-005     6.423
768        0.001415    0.00589  7.416E-005      5.243 0.0001007      7.12
769        0.001425   0.005932  6.729E-005      4.723 8.999E-005     6.316
770        0.001471   0.006123  6.993E-005      4.756  0.000109      7.41
771        0.001471   0.006124  6.492E-005      4.414 9.986E-005     6.789
772         0.00147   0.006122  6.549E-005      4.454 0.0001005     6.833
773         0.00146    0.00608  7.167E-005      4.908 0.0001041     7.126
774        0.001446    0.00602  7.393E-005      5.113  0.000102     7.053
775        0.001437   0.005985  7.202E-005       5.01 9.709E-005     6.755
776        0.001385   0.005765  6.839E-005       4.94 8.894E-005     6.423
777        0.001415    0.00589  7.431E-005      5.253  0.000101      7.14
778        0.001425   0.005934  6.663E-005      4.675 8.934E-005     6.268
779        0.001472    0.00613  7.035E-005      4.778 0.0001112     7.553
780        0.001471   0.006126  6.435E-005      4.373 9.923E-005     6.744
781         0.00147   0.006122  6.547E-005      4.453 0.0001004     6.831
782         0.00146    0.00608  7.168E-005      4.909 0.0001041     7.126
783        0.001446    0.00602  7.401E-005      5.119 0.0001021      7.06
784        0.001437   0.005985  7.202E-005       5.01 9.709E-005     6.755
785        0.001385   0.005768  6.855E-005      4.949 8.898E-005     6.423
786        0.001415   0.005892  7.463E-005      5.273 0.0001016     7.179
787        0.001474   0.006135  7.067E-005      4.796 0.0001129     7.665
788         0.00147   0.006122  6.545E-005      4.451 0.0001004      6.83
789         0.00146    0.00608  7.169E-005      4.909 0.0001041     7.127
790        0.001446    0.00602  7.407E-005      5.122 0.0001021     7.064
791        0.001437   0.005985  7.202E-005       5.01 9.709E-005     6.755
792        0.001415   0.005893  7.472E-005       5.28 0.0001017     7.186
793        0.001415   0.005892  7.463E-005      5.273  0.000102     7.204
794        0.001475    0.00614  7.097E-005      4.812 0.0001145     7.767
795         0.00147   0.006122  6.543E-005       4.45 0.0001004     6.828
796         0.00146    0.00608  7.17E-005       4.91 0.0001041     7.127
797        0.001446   0.006021  7.412E-005      5.126 0.0001022     7.068
798        0.001437   0.005985  7.202E-005       5.01 9.709E-005     6.755
799        0.001415   0.005893  7.48E-005      5.285 0.0001018     7.192
800        0.001415   0.005893  7.464E-005      5.273 0.0001025     7.244
801        0.001475    0.00614  7.099E-005      4.814 0.0001146     7.771
802        0.001475   0.006142  7.084E-005      4.802 0.0001148     7.784
803         0.00147   0.006122  6.541E-005      4.448 0.0001004     6.826
804        0.001461   0.006081  7.177E-005      4.914 0.0001042     7.132
805        0.001446   0.006021  7.415E-005      5.127 0.0001022      7.07
806        0.001437   0.005985  7.202E-005       5.01 9.709E-005     6.755
807        0.001415   0.005893  7.487E-005      5.289 0.0001019     7.198
808        0.001415   0.005894  7.465E-005      5.274  0.000103     7.279
809        0.001475    0.00614  7.101E-005      4.815 0.0001147     7.775
810        0.001476   0.006145  7.079E-005      4.796 0.0001153     7.813
811        0.001475   0.006142  7.084E-005      4.802 0.0001148     7.784
812         0.00147   0.006122  6.539E-005      4.447 0.0001004     6.825
813        0.001461   0.006083  7.193E-005      4.923 0.0001043     7.141
814        0.001446   0.006021  7.419E-005       5.13 0.0001023     7.074
815        0.001437   0.005985  7.202E-005       5.01 9.709E-005     6.755
816        0.001415   0.005894  7.492E-005      5.293 0.0001019     7.202
817        0.001416   0.005894  7.465E-005      5.274 0.0001033     7.299
818        0.001475   0.006141  7.103E-005      4.816 0.0001147     7.779
819        0.001477   0.006148  7.074E-005      4.791 0.0001157     7.839
820        0.001476   0.006145  7.079E-005      4.796 0.0001153     7.813
821         0.00147   0.006122  6.537E-005      4.446 0.0001003     6.824
822        0.001446   0.006021  7.423E-005      5.133 0.0001023     7.077
823        0.001437   0.005985  7.202E-005       5.01 9.709E-005     6.755
824        0.001416   0.005894  7.497E-005      5.296  0.000102     7.206
825        0.001475   0.006141  7.104E-005      4.817 0.0001148     7.784
826        0.001477    0.00615  7.07E-005      4.786 0.0001162     7.867
827        0.001477   0.006148  7.074E-005      4.791 0.0001157     7.839
828        0.001471   0.006123  6.519E-005      4.433 0.0001001      6.81
829        0.001446   0.006022  7.428E-005      5.136 0.0001024     7.081
830        0.001437   0.005985  7.202E-005       5.01 9.709E-005     6.755
831        0.001416   0.005894  7.502E-005        5.3 0.0001021      7.21
832        0.001475   0.006141  7.106E-005      4.818 0.0001149     7.788
833        0.001478   0.006152  7.067E-005      4.783 0.0001166      7.89
834        0.001477    0.00615  7.07E-005      4.786 0.0001162     7.867
835        0.001471   0.006125  6.459E-005       4.39 9.949E-005     6.763
836        0.001447   0.006025  7.488E-005      5.175 0.0001031     7.128
837        0.001416   0.005894  7.505E-005      5.302 0.0001021     7.213
838        0.001475   0.006141  7.108E-005      4.819 0.0001149     7.792
839        0.001478   0.006154  7.064E-005      4.779  0.000117     7.916
840        0.001478   0.006152  7.067E-005      4.783 0.0001166      7.89
841        0.001447   0.006026  7.512E-005       5.19 0.0001034     7.146
842        0.001416   0.005894  7.509E-005      5.304 0.0001022     7.216
843        0.001475   0.006141  7.11E-005       4.82  0.000115     7.796
844         0.00148   0.006161  7.122E-005      4.813 0.0001177     7.953
845        0.001478   0.006154  7.064E-005      4.779  0.000117     7.916
846        0.001478   0.006154  7.064E-005      4.779  0.000117     7.916
847        0.001447   0.006027  7.524E-005      5.198 0.0001036     7.156
848        0.001416   0.005895  7.515E-005      5.308 0.0001022      7.22
849        0.001475   0.006141  7.111E-005      4.821  0.000115     7.798
850         0.00148   0.006162  7.131E-005      4.819 0.0001178     7.958
851        0.001478   0.006154  7.064E-005      4.779  0.000117     7.916
852        0.001478   0.006154  7.064E-005      4.779  0.000117     7.916
853        0.001447   0.006027  7.527E-005        5.2 0.0001036     7.158
854        0.001416   0.005895  7.525E-005      5.314 0.0001023     7.228
855        0.001475   0.006143  7.132E-005      4.834 0.0001157     7.844
856         0.00148   0.006164  7.156E-005      4.833 0.0001181     7.974
857        0.001478   0.006154  7.064E-005      4.779  0.000117     7.916
858        0.001478   0.006154  7.064E-005      4.779  0.000117     7.916
859        0.001447   0.006027  7.529E-005      5.201 0.0001036      7.16
860        0.001416   0.005897  7.563E-005       5.34 0.0001028     7.258
861        0.001417     0.0059  7.627E-005      5.382 0.0001036     7.308
862        0.001476   0.006144  7.146E-005      4.842 0.0001162     7.875
863        0.001481   0.006167  7.186E-005      4.851 0.0001184     7.993
864        0.001478   0.006154  7.064E-005      4.779  0.000117     7.916
865        0.001478   0.006154  7.064E-005      4.779  0.000117     7.916
866        0.001448   0.006027  7.531E-005      5.203 0.0001037     7.161
867        0.001476   0.006145  7.159E-005       4.85 0.0001166     7.901
868        0.001481   0.006167  7.19E-005      4.854 0.0001184     7.996
869        0.001478   0.006154  7.064E-005      4.779  0.000117     7.916
870        0.001478   0.006154  7.064E-005      4.779  0.000117     7.916
871        0.001448   0.006027  7.533E-005      5.204 0.0001037     7.163
872        0.001476   0.006146  7.172E-005      4.858  0.000117     7.928
873        0.001481   0.006168  7.192E-005      4.855 0.0001185     7.997
874        0.001481   0.006168  7.195E-005      4.857 0.0001185     7.999
875        0.001478   0.006154  7.064E-005      4.779  0.000117     7.916
876        0.001478   0.006154  7.064E-005      4.779  0.000117     7.916
877        0.001448   0.006027  7.535E-005      5.205 0.0001037     7.164
878        0.001477   0.006148  7.195E-005      4.872 0.0001178     7.975
879        0.001481   0.006168  7.195E-005      4.857 0.0001185     7.999
880        0.001482   0.006169  7.208E-005      4.865 0.0001186     8.007
881        0.001478   0.006154  7.064E-005      4.779  0.000117     7.916
882        0.001478   0.006154  7.064E-005      4.779  0.000117     7.916
883        0.001448   0.006027  7.536E-005      5.206 0.0001037     7.165
884        0.001477   0.006149  7.201E-005      4.876  0.000118     7.987
885        0.001481   0.006168  7.198E-005      4.859 0.0001185     8.001
886        0.001482   0.006172  7.24E-005      4.884  0.000119     8.027
887        0.001448   0.006027  7.538E-005      5.207 0.0001037     7.167
888        0.001477   0.006149  7.209E-005      4.881  0.000118     7.992
889        0.001477    0.00615  7.203E-005      4.877 0.0001184     8.017
890        0.001482   0.006169  7.202E-005      4.861 0.0001186     8.004
891        0.001448   0.006029  7.569E-005      5.227 0.0001041     7.191
892        0.001477    0.00615  7.221E-005      4.889 0.0001182         8
893        0.001477    0.00615  7.205E-005      4.877 0.0001188     8.042
894        0.001482    0.00617  7.22E-005      4.872 0.0001188     8.015
895        0.001449   0.006033  7.643E-005      5.275  0.000105     7.248
896        0.001448   0.006031  7.611E-005      5.254 0.0001046     7.223
897        0.001477    0.00615  7.224E-005      4.891 0.0001182     8.002
898        0.001477   0.006151  7.208E-005      4.879 0.0001194     8.085
899        0.001483   0.006173  7.252E-005      4.891 0.0001191     8.035
900        0.001449   0.006035  7.692E-005      5.307 0.0001056     7.286
901        0.001477    0.00615  7.226E-005      4.892 0.0001182     8.003
902        0.001477    0.00615  7.228E-005      4.893 0.0001182     8.004
903        0.001477    0.00615  7.23E-005      4.894 0.0001183     8.006
904        0.001477   0.006151  7.234E-005      4.897 0.0001183     8.008
905        0.001477   0.006151  7.241E-005      4.902 0.0001184     8.013
906        0.001478   0.006154  7.301E-005       4.94  0.000119     8.051
